Folder: Calorimetry/Data

Note: Data/Readme
Calorimetry Data public repository folder

File: Benzoic_Acid_DSC_Data.csv
Instrument name,DSC2A-00468
Operator,Yarger
Sample name,Benzoic_Acid
[step]
Ramp 5.00 °C/min to 150.00 °C
Time,Temperature,Heat Flow (Normalized)
min,°C,W/g
0.00,30.07,-0.007
0.08,30.10,-0.006
0.16,30.28,0.029
0.24,30.59,0.055
0.32,30.95,0.064
0.40,31.33,0.067
0.48,31.72,0.070
0.56,32.12,0.073
0.64,32.51,0.074
0.72,32.91,0.075
0.80,33.31,0.075
0.88,33.71,0.076
0.96,34.11,0.075
1.04,34.51,0.075
1.12,34.90,0.075
1.20,35.30,0.075
1.28,35.70,0.074
1.36,36.10,0.074
1.44,36.50,0.074
1.52,36.90,0.073
1.60,37.30,0.073
1.68,37.70,0.073
1.76,38.10,0.073
1.84,38.50,0.073
1.92,38.90,0.073
2.00,39.30,0.072
2.08,39.70,0.072
2.16,40.10,0.072
2.24,40.50,0.072
2.32,40.90,0.072
2.40,41.30,0.072
2.48,41.70,0.072
2.56,42.10,0.071
2.64,42.50,0.071
2.72,42.90,0.071
2.80,43.30,0.071
2.88,43.70,0.071
2.96,44.10,0.071
3.04,44.50,0.071
3.12,44.90,0.071
3.20,45.30,0.071
3.28,45.70,0.071
3.36,46.10,0.071
3.44,46.51,0.071
3.52,46.91,0.071
3.60,47.31,0.071
3.68,47.71,0.071
3.76,48.11,0.071
3.84,48.51,0.071
3.92,48.91,0.071
4.00,49.31,0.071
4.08,49.71,0.071
4.16,50.11,0.071
4.24,50.51,0.071
4.32,50.91,0.071
4.40,51.31,0.071
4.48,51.71,0.071
4.56,52.11,0.071
4.64,52.51,0.071
4.72,52.91,0.071
4.80,53.31,0.071
4.88,53.71,0.071
4.96,54.11,0.071
5.04,54.51,0.071
5.12,54.91,0.071
5.20,55.31,0.071
5.28,55.71,0.071
5.36,56.11,0.071
5.44,56.51,0.071
5.52,56.91,0.071
5.60,57.31,0.071
5.68,57.71,0.071
5.76,58.11,0.072
5.84,58.51,0.072
5.92,58.91,0.072
6.00,59.31,0.072
6.08,59.71,0.072
6.16,60.11,0.072
6.24,60.51,0.072
6.32,60.91,0.072
6.40,61.31,0.072
6.48,61.71,0.072
6.56,62.11,0.072
6.64,62.51,0.072
6.72,62.91,0.072
6.80,63.31,0.072
6.88,63.71,0.072
6.96,64.11,0.072
7.04,64.51,0.072
7.12,64.91,0.072
7.20,65.31,0.072
7.28,65.71,0.072
7.36,66.11,0.072
7.44,66.51,0.072
7.52,66.91,0.072
7.60,67.31,0.072
7.68,67.71,0.072
7.76,68.12,0.072
7.84,68.52,0.072
7.92,68.92,0.072
8.00,69.32,0.072
8.08,69.71,0.073
8.16,70.12,0.073
8.24,70.52,0.073
8.32,70.92,0.073
8.40,71.32,0.073
8.48,71.72,0.073
8.56,72.12,0.073
8.64,72.52,0.073
8.72,72.92,0.073
8.80,73.32,0.073
8.88,73.72,0.073
8.96,74.12,0.073
9.04,74.52,0.073
9.12,74.92,0.073
9.20,75.32,0.073
9.28,75.72,0.073
9.36,76.12,0.073
9.44,76.52,0.073
9.52,76.92,0.073
9.60,77.32,0.073
9.68,77.72,0.073
9.76,78.12,0.073
9.84,78.52,0.073
9.92,78.92,0.073
10.00,79.32,0.073
10.08,79.72,0.073
10.16,80.12,0.073
10.24,80.52,0.073
10.32,80.92,0.073
10.40,81.32,0.074
10.48,81.72,0.074
10.56,82.12,0.074
10.64,82.52,0.074
10.72,82.92,0.074
10.80,83.32,0.074
10.88,83.72,0.074
10.96,84.12,0.074
11.04,84.52,0.074
11.12,84.92,0.074
11.20,85.32,0.074
11.28,85.72,0.074
11.36,86.12,0.074
11.44,86.52,0.074
11.52,86.92,0.074
11.60,87.32,0.074
11.68,87.72,0.074
11.76,88.12,0.074
11.84,88.52,0.074
11.92,88.92,0.075
12.00,89.32,0.075
12.08,89.72,0.075
12.16,90.12,0.075
12.24,90.53,0.075
12.32,90.92,0.075
12.40,91.32,0.075
12.48,91.73,0.075
12.56,92.13,0.075
12.64,92.53,0.075
12.72,92.92,0.075
12.80,93.33,0.075
12.88,93.73,0.075
12.96,94.13,0.075
13.04,94.53,0.075
13.12,94.93,0.075
13.20,95.33,0.075
13.28,95.73,0.075
13.36,96.13,0.075
13.44,96.53,0.075
13.52,96.93,0.075
13.60,97.33,0.075
13.68,97.73,0.075
13.76,98.13,0.075
13.84,98.53,0.075
13.92,98.93,0.075
14.00,99.33,0.075
14.08,99.73,0.075
14.16,100.13,0.075
14.24,100.53,0.076
14.32,100.93,0.076
14.40,101.33,0.076
14.48,101.73,0.076
14.56,102.13,0.076
14.64,102.53,0.076
14.72,102.93,0.076
14.80,103.33,0.076
14.88,103.73,0.076
14.96,104.13,0.077
15.04,104.53,0.076
15.12,104.93,0.077
15.20,105.33,0.077
15.28,105.73,0.077
15.36,106.13,0.077
15.44,106.53,0.077
15.52,106.93,0.077
15.60,107.33,0.077
15.68,107.73,0.077
15.76,108.13,0.077
15.84,108.53,0.077
15.92,108.93,0.077
16.00,109.33,0.077
16.08,109.73,0.077
16.16,110.13,0.077
16.24,110.53,0.078
16.32,110.93,0.078
16.40,111.33,0.078
16.48,111.73,0.078
16.56,112.13,0.078
16.64,112.53,0.078
16.72,112.93,0.078
16.80,113.33,0.078
16.88,113.73,0.079
16.96,114.14,0.079
17.04,114.54,0.080
17.12,114.94,0.080
17.20,115.33,0.080
17.28,115.73,0.081
17.36,116.13,0.081
17.44,116.53,0.082
17.52,116.93,0.083
17.60,117.33,0.084
17.68,117.73,0.086
17.76,118.13,0.087
17.84,118.53,0.090
17.92,118.93,0.093
18.00,119.33,0.098
18.08,119.73,0.111
18.16,120.13,0.144
18.24,120.52,0.211
18.32,120.91,0.350
18.40,121.27,0.771
18.48,121.58,1.841
18.56,121.79,3.637
18.64,121.95,5.298
18.72,122.20,5.847
18.80,122.54,5.925
18.88,122.96,5.786
18.96,123.70,1.265
19.04,124.37,0.543
19.12,124.87,0.275
19.20,125.31,0.175
19.28,125.72,0.141
19.36,126.13,0.131
19.44,126.53,0.128
19.52,126.93,0.125
19.60,127.33,0.123
19.68,127.73,0.122
19.76,128.13,0.121
19.84,128.53,0.120
19.92,128.93,0.120
20.00,129.33,0.119
20.08,129.73,0.119
20.16,130.13,0.119
20.24,130.53,0.119
20.32,130.93,0.119
20.40,131.33,0.119
20.48,131.73,0.119
20.56,132.13,0.119
20.64,132.53,0.119
20.72,132.93,0.119
20.80,133.33,0.119
20.88,133.73,0.119
20.96,134.13,0.119
21.04,134.54,0.119
21.12,134.93,0.119
21.20,135.33,0.119
21.28,135.73,0.119
21.36,136.13,0.119
21.44,136.53,0.119
21.52,136.93,0.119
21.60,137.33,0.119
21.68,137.74,0.120
21.76,138.14,0.120
21.84,138.54,0.120
21.92,138.94,0.120
22.00,139.33,0.120
22.08,139.73,0.120
22.16,140.14,0.120
22.24,140.54,0.120
22.32,140.94,0.120
22.40,141.34,0.120
22.48,141.74,0.120
22.56,142.14,0.120
22.64,142.54,0.121
22.72,142.94,0.120
22.80,143.34,0.121
22.88,143.74,0.121
22.96,144.14,0.121
23.04,144.54,0.121
23.12,144.94,0.121
23.20,145.34,0.121
23.28,145.74,0.121
23.36,146.14,0.121
23.44,146.54,0.121
23.52,146.94,0.122
23.60,147.34,0.122
23.68,147.74,0.122
23.76,148.14,0.122
23.84,148.54,0.122
23.92,148.94,0.122
24.00,,

[step]
Ramp 5.00 °C/min to 30.00 °C
Time,Temperature,Heat Flow (Normalized)
min,°C,W/g
25.00,150.06,-0.043
25.08,150.04,-0.044
25.16,149.86,-0.117
25.24,149.54,-0.177
25.32,149.17,-0.192
25.40,148.79,-0.200
25.48,148.39,-0.202
25.56,148.00,-0.203
25.64,147.60,-0.204
25.72,147.20,-0.204
25.80,146.81,-0.204
25.88,146.41,-0.204
25.96,146.01,-0.204
26.04,145.61,-0.204
26.12,145.21,-0.203
26.20,144.81,-0.203
26.28,144.42,-0.202
26.36,144.02,-0.202
26.44,143.62,-0.201
26.52,143.22,-0.200
26.60,142.82,-0.200
26.68,142.42,-0.199
26.76,142.02,-0.199
26.84,141.62,-0.198
26.92,141.22,-0.198
27.00,140.82,-0.197
27.08,140.42,-0.197
27.16,140.02,-0.196
27.24,139.62,-0.195
27.32,139.22,-0.195
27.40,138.82,-0.194
27.48,138.42,-0.194
27.56,138.02,-0.193
27.64,137.62,-0.193
27.72,137.22,-0.192
27.80,136.82,-0.192
27.88,136.42,-0.192
27.96,136.02,-0.191
28.04,135.62,-0.191
28.12,135.22,-0.191
28.20,134.82,-0.190
28.28,134.42,-0.190
28.36,134.02,-0.189
28.44,133.62,-0.189
28.52,133.22,-0.189
28.60,132.82,-0.188
28.68,132.43,-0.188
28.76,132.03,-0.187
28.84,131.63,-0.186
28.92,131.23,-0.187
29.00,130.82,-0.186
29.08,130.42,-0.186
29.16,130.02,-0.186
29.24,129.63,-0.185
29.32,129.23,-0.185
29.40,128.83,-0.185
29.48,128.43,-0.184
29.56,128.03,-0.184
29.64,127.63,-0.184
29.72,127.23,-0.184
29.80,126.83,-0.184
29.88,126.43,-0.183
29.96,126.03,-0.183
30.04,125.63,-0.183
30.12,125.23,-0.182
30.20,124.83,-0.182
30.28,124.43,-0.182
30.36,124.03,-0.182
30.44,123.63,-0.182
30.52,123.23,-0.182
30.60,122.83,-0.181
30.68,122.43,-0.181
30.76,122.03,-0.180
30.84,121.63,-0.180
30.92,121.23,-0.180
31.00,120.83,-0.180
31.08,120.43,-0.179
31.16,120.03,-0.179
31.24,119.63,-0.179
31.32,119.23,-0.178
31.40,118.83,-0.178
31.48,118.43,-0.178
31.56,118.03,-0.178
31.64,117.63,-0.177
[...]
83.72,107.24,-0.171
83.80,106.84,-0.171
83.88,106.44,-0.170
83.96,106.04,-0.170
84.04,105.64,-0.170
84.12,105.24,-0.170
84.20,104.84,-0.169
84.28,104.44,-0.169
84.36,104.04,-0.169
84.44,103.64,-0.169
84.52,103.24,-0.168
84.60,102.84,-0.168
84.68,102.44,-0.168
84.76,102.04,-0.168
84.84,101.64,-0.168
84.92,101.24,-0.167
85.00,100.84,-0.167
85.08,100.44,-0.167
85.16,100.04,-0.167
85.24,99.64,-0.166
85.32,99.24,-0.166
85.40,98.84,-0.166
85.48,98.44,-0.166
85.56,98.04,-0.165
85.64,97.64,-0.165
85.72,100.54,-92.517
85.80,98.24,-1.473
85.88,96.96,-0.670
85.96,96.24,-0.336
86.04,95.71,-0.205
86.12,95.27,-0.161
86.20,94.85,-0.142
86.28,94.44,-0.136
86.36,94.04,-0.133
86.44,93.64,-0.132
86.52,93.24,-0.130
86.60,92.84,-0.129
86.68,92.44,-0.128
86.76,92.04,-0.126
86.84,91.64,-0.126
86.92,91.24,-0.126
87.00,90.84,-0.126
87.08,90.44,-0.125
87.16,90.04,-0.125
87.24,89.64,-0.124
87.32,89.24,-0.124
87.40,88.84,-0.123
87.48,88.44,-0.124
87.56,88.04,-0.123
87.64,87.64,-0.123
87.72,87.24,-0.123
87.80,86.84,-0.123
87.88,86.44,-0.122
87.96,86.04,-0.122
88.04,85.64,-0.122
88.12,85.24,-0.122
88.20,84.84,-0.121
88.28,84.44,-0.121
88.36,84.04,-0.121
88.44,83.64,-0.121
88.52,83.24,-0.121
88.60,82.84,-0.120
88.68,82.45,-0.120
88.76,82.05,-0.120
88.84,81.65,-0.120
88.92,81.25,-0.120
89.00,80.85,-0.120
89.08,80.45,-0.119
89.16,80.05,-0.119
89.24,79.65,-0.119
89.32,79.25,-0.118
89.40,78.85,-0.118
89.48,78.45,-0.118
89.56,78.05,-0.118
89.64,77.65,-0.117
89.72,77.25,-0.117
89.80,76.85,-0.117
89.88,76.45,-0.117
89.96,76.05,-0.117
90.04,75.65,-0.117
90.12,75.25,-0.117
90.20,74.85,-0.116
90.28,74.45,-0.116
90.36,74.05,-0.116
90.44,73.65,-0.116
90.52,73.25,-0.116
90.60,72.85,-0.116
90.68,72.45,-0.115
90.76,72.05,-0.115
90.84,71.65,-0.115
90.92,71.25,-0.114
91.00,70.85,-0.114
91.08,70.45,-0.114
91.16,70.05,-0.114
91.24,69.65,-0.114
91.32,69.25,-0.114
91.40,68.85,-0.113
91.48,68.45,-0.113
91.56,68.05,-0.113
91.64,67.65,-0.113
91.72,67.25,-0.113
91.80,66.85,-0.112
91.88,66.45,-0.112
91.96,66.05,-0.112
92.04,65.65,-0.112
92.12,65.25,-0.112
92.20,64.85,-0.112
92.28,64.45,-0.112
92.36,64.05,-0.111
92.44,63.65,-0.111
92.52,63.25,-0.111
92.60,62.85,-0.110
92.68,62.45,-0.110
92.76,62.05,-0.110
92.84,61.65,-0.110
92.92,61.25,-0.109
93.00,60.85,-0.109
93.08,60.46,-0.111
93.16,60.06,-0.110
93.24,59.66,-0.109
93.32,59.26,-0.109
93.40,58.86,-0.109
93.48,58.46,-0.108
93.56,58.06,-0.108
93.64,57.66,-0.108
93.72,57.26,-0.107
93.80,56.86,-0.107
93.88,56.46,-0.107
93.96,56.06,-0.107
94.04,55.66,-0.106
94.12,55.26,-0.106
94.20,54.86,-0.106
94.28,54.46,-0.106
94.36,54.06,-0.106
94.44,53.66,-0.106
94.52,53.26,-0.106
94.60,52.86,-0.106
94.68,52.46,-0.106
94.76,52.06,-0.105
94.84,51.66,-0.105
94.92,51.26,-0.106
95.00,50.86,-0.104
95.08,50.46,-0.104
95.16,50.06,-0.104
95.24,49.66,-0.104
95.32,49.26,-0.105
95.40,48.86,-0.105
95.48,48.46,-0.104
95.56,48.06,-0.103
95.64,47.66,-0.103
95.72,47.26,-0.103
95.80,46.86,-0.103
95.88,46.46,-0.102
95.96,46.06,-0.102
96.04,45.66,-0.101
96.12,45.26,-0.102
96.20,44.86,-0.105
96.28,44.46,-0.103
96.36,44.06,-0.103
96.44,43.66,-0.102
96.52,43.26,-0.102
96.60,42.86,-0.101
96.68,42.46,-0.101
96.76,42.06,-0.101
96.84,41.66,-0.100
96.92,41.27,-0.100
97.00,40.87,-0.100
97.08,40.46,-0.101
97.16,40.06,-0.100
97.24,39.66,-0.100
97.32,39.26,-0.099
97.40,38.86,-0.099
97.48,38.47,-0.098
97.56,38.07,-0.098
97.64,37.66,-0.098
97.72,37.27,-0.097
97.80,36.86,-0.097
97.88,36.46,-0.097
97.96,36.06,-0.097
98.04,35.66,-0.097
98.12,35.27,-0.097
98.20,34.86,-0.096
98.28,34.46,-0.096
98.36,34.07,-0.096
98.44,33.67,-0.096
98.52,33.27,-0.096
98.60,32.87,-0.096
98.68,32.47,-0.095
98.76,32.07,-0.095
98.84,31.67,-0.095
98.92,31.27,-0.094
99.00,,

File: Indium_DSC_Data.csv
Instrument name,DSC2A-00468
Operator,Jeff Yarger
Sample name,Indium
[step]
Ramp 10.00 °C/min to 200.00 °C
Time,Temperature,Heat Flow (Normalized)
min,°C,W/g
36.00,30.13,-0.010
36.06,30.15,-0.004
36.12,30.29,0.045
36.17,30.63,0.072
36.23,31.08,0.077
36.29,31.58,0.081
36.34,32.11,0.083
36.40,32.65,0.084
36.46,33.20,0.084
36.51,33.75,0.085
36.57,34.31,0.085
36.63,34.87,0.085
36.68,35.43,0.086
36.74,35.99,0.086
36.80,36.56,0.086
36.85,37.12,0.086
36.91,37.68,0.086
36.97,38.25,0.086
37.02,38.81,0.087
37.08,39.38,0.087
37.14,39.94,0.087
37.19,40.51,0.087
37.25,41.07,0.087
37.31,41.64,0.087
37.36,42.21,0.087
37.42,42.77,0.087
37.48,43.34,0.087
37.53,43.91,0.087
37.59,44.47,0.087
37.65,45.04,0.087
37.70,45.61,0.087
37.76,46.17,0.087
37.82,46.74,0.087
37.87,47.31,0.087
37.93,47.87,0.087
37.99,48.44,0.087
38.04,49.01,0.087
38.10,49.58,0.087
38.16,50.14,0.087
38.21,50.71,0.087
38.27,51.28,0.087
38.33,51.85,0.087
38.38,52.41,0.087
38.44,52.98,0.087
38.50,53.55,0.087
38.55,54.11,0.087
38.61,54.68,0.087
38.67,55.25,0.087
38.72,55.82,0.087
38.78,56.38,0.087
38.84,56.95,0.087
38.89,57.52,0.087
38.95,58.09,0.087
39.01,58.65,0.087
39.06,59.22,0.087
39.12,59.79,0.087
39.18,60.35,0.087
39.23,60.92,0.087
39.29,61.49,0.087
39.35,62.06,0.087
39.40,62.62,0.087
39.46,63.19,0.087
39.52,63.76,0.087
39.57,64.33,0.087
39.63,64.89,0.087
39.69,65.46,0.087
39.74,66.03,0.087
39.80,66.60,0.087
39.86,67.16,0.087
39.91,67.73,0.087
39.97,68.30,0.087
40.03,68.86,0.087
40.08,69.43,0.087
40.14,70.00,0.087
40.20,70.57,0.087
40.25,71.13,0.087
40.31,71.70,0.087
40.37,72.27,0.087
40.42,72.83,0.087
40.48,73.40,0.087
40.54,73.97,0.087
40.59,74.54,0.087
40.65,75.10,0.088
40.71,75.67,0.088
40.76,76.24,0.088
40.82,76.80,0.088
40.88,77.37,0.088
40.93,77.94,0.088
40.99,78.51,0.088
41.05,79.07,0.088
41.10,79.64,0.088
41.16,80.21,0.088
41.22,80.78,0.088
41.27,81.34,0.088
41.33,81.91,0.088
41.39,82.48,0.088
41.44,83.04,0.088
41.50,83.61,0.088
41.56,84.18,0.088
41.61,84.75,0.088
41.67,85.31,0.088
41.73,85.88,0.088
41.78,86.45,0.088
41.84,87.01,0.088
41.90,87.58,0.088
41.95,88.15,0.088
42.01,88.72,0.088
42.07,89.28,0.088
42.12,89.85,0.088
42.18,90.42,0.089
42.24,90.99,0.089
42.29,91.55,0.089
42.35,92.12,0.089
42.41,92.69,0.089
42.46,93.26,0.089
42.52,93.82,0.089
42.58,94.39,0.089
42.63,94.96,0.089
42.69,95.53,0.089
42.75,96.09,0.089
42.80,96.66,0.089
42.86,97.23,0.089
42.92,97.79,0.090
42.97,98.36,0.090
43.03,98.93,0.090
43.09,99.50,0.090
43.14,100.06,0.090
43.20,100.63,0.090
43.26,101.20,0.090
43.31,101.76,0.090
43.37,102.33,0.090
43.43,102.90,0.090
43.48,103.46,0.090
43.54,104.03,0.090
43.60,104.60,0.090
43.65,105.16,0.091
43.71,105.73,0.091
43.77,106.30,0.091
43.82,106.87,0.091
43.88,107.43,0.091
43.94,108.00,0.091
43.99,108.57,0.091
44.05,109.14,0.091
44.11,109.70,0.091
44.16,110.27,0.091
44.22,110.84,0.091
44.28,111.40,0.091
44.33,111.97,0.091
44.39,112.54,0.092
44.45,113.10,0.092
44.50,113.67,0.092
44.56,114.24,0.092
44.62,114.81,0.092
44.67,115.38,0.092
44.73,115.94,0.092
44.79,116.51,0.092
44.84,117.08,0.092
44.90,117.64,0.092
44.96,118.21,0.092
45.01,118.78,0.092
45.07,119.35,0.092
45.13,119.91,0.093
45.18,120.48,0.093
45.24,121.05,0.093
45.30,121.61,0.093
45.35,122.18,0.093
45.41,122.75,0.093
45.47,123.32,0.093
45.52,123.88,0.093
45.58,124.45,0.093
45.64,125.02,0.093
45.69,125.58,0.093
45.75,126.15,0.093
45.81,126.72,0.093
45.86,127.28,0.093
45.92,127.85,0.093
45.98,128.42,0.094
46.03,128.98,0.094
46.09,129.55,0.094
46.15,130.12,0.094
46.20,130.69,0.094
46.26,131.25,0.094
46.32,131.82,0.094
46.37,132.39,0.094
46.43,132.95,0.094
46.49,133.52,0.094
46.54,134.09,0.094
46.60,134.66,0.094
46.66,135.22,0.094
46.71,135.79,0.094
46.77,136.36,0.095
46.83,136.92,0.095
46.88,137.49,0.095
46.94,138.06,0.095
47.00,138.63,0.095
47.05,139.19,0.095
47.11,139.76,0.095
47.17,140.33,0.095
47.22,140.89,0.095
47.28,141.46,0.095
47.34,142.03,0.096
47.39,142.59,0.096
47.45,143.16,0.096
47.51,143.73,0.096
47.56,144.30,0.096
47.62,144.86,0.096
47.68,145.43,0.096
47.73,146.00,0.096
47.79,146.56,0.096
47.85,147.13,0.097
47.90,147.70,0.097
47.96,148.27,0.097
48.02,148.83,0.097
48.07,149.40,0.097
48.13,149.97,0.097
48.19,150.53,0.097
48.24,151.10,0.097
48.30,151.67,0.097
48.36,152.23,0.097
48.41,152.80,0.098
48.47,153.37,0.098
48.53,153.94,0.098
48.58,154.50,0.098
48.64,155.07,0.098
48.70,155.64,0.098
48.75,156.20,0.098
48.81,156.74,0.342
48.87,157.04,1.039
48.92,157.29,1.608
48.98,157.56,2.017
49.04,158.01,1.970
49.09,158.67,1.240
49.15,159.64,0.422
49.21,160.49,0.248
49.26,161.19,0.168
49.32,161.82,0.131
49.38,162.42,0.114
49.43,163.00,0.106
49.49,163.57,0.103
49.55,164.14,0.101
49.60,164.71,0.101
49.66,165.28,0.100
49.72,165.85,0.100
49.77,166.41,0.100
49.83,166.98,0.100
49.89,167.55,0.100
49.94,168.12,0.100
50.00,168.68,0.100
50.06,169.25,0.100
50.11,169.81,0.100
50.17,170.38,0.100
50.23,170.95,0.100
50.28,171.51,0.100
50.34,172.08,0.100
50.40,172.65,0.100
50.45,173.22,0.100
50.51,173.78,0.100
50.57,174.35,0.100
50.62,174.92,0.100
50.68,175.48,0.100
50.74,176.05,0.100
50.79,176.62,0.101
50.85,177.19,0.101
50.91,177.75,0.101
50.96,178.32,0.101
51.02,178.89,0.101
51.08,179.45,0.101
51.13,180.02,0.101
51.19,180.59,0.101
51.25,181.15,0.101
51.30,181.72,0.101
51.36,182.29,0.101
51.42,182.85,0.101
51.47,183.42,0.102
51.53,183.99,0.102
51.59,184.56,0.102
51.64,185.12,0.102
51.70,185.69,0.102
51.76,186.26,0.102
51.81,186.82,0.102
51.87,187.39,0.102
51.93,187.96,0.102
51.98,188.52,0.102
52.04,189.09,0.102
52.10,189.66,0.103
52.15,190.23,0.103
52.21,190.79,0.103
52.27,191.36,0.103
52.32,191.93,0.103
52.38,192.50,0.103
52.44,193.06,0.103
52.49,193.63,0.103
52.55,194.20,0.103
52.61,194.76,0.104
52.66,195.33,0.104
52.72,195.90,0.104
52.78,196.46,0.104
52.83,197.03,0.104
52.89,197.60,0.104
52.94,198.13,0.104

[step]
Ramp 10.00 °C/min to 30.00 °C
Time,Temperature,Heat Flow (Normalized)
min,°C,W/g
54.00,200.09,-0.006
54.06,200.08,-0.013
54.12,199.95,-0.061
54.17,199.61,-0.096
54.23,199.14,-0.107
54.29,198.62,-0.110
54.34,198.08,-0.112
54.40,197.53,-0.113
54.46,196.98,-0.114
54.51,196.42,-0.114
54.57,195.86,-0.114
54.63,195.30,-0.115
54.68,194.74,-0.115
54.74,194.18,-0.115
54.80,193.62,-0.116
54.85,193.05,-0.116
54.91,192.49,-0.116
54.97,191.93,-0.116
55.02,191.36,-0.116
55.08,190.80,-0.116
55.14,190.24,-0.116
55.19,189.67,-0.116
55.25,189.11,-0.116
55.31,188.54,-0.117
55.36,187.98,-0.116
55.42,187.41,-0.117
55.48,186.84,-0.117
55.53,186.28,-0.117
55.59,185.71,-0.116
55.65,185.15,-0.116
55.70,184.58,-0.116
55.76,184.02,-0.116
55.82,183.45,-0.116
55.87,182.89,-0.116
55.93,182.32,-0.116
55.99,181.75,-0.116
56.04,181.19,-0.116
56.10,180.62,-0.116
56.16,180.06,-0.116
56.21,179.49,-0.116
56.27,178.93,-0.116
56.33,178.36,-0.116
56.38,177.79,-0.116
56.44,177.23,-0.116
56.50,176.66,-0.116
56.55,176.09,-0.116
56.61,175.53,-0.116
56.67,174.96,-0.116
56.72,174.40,-0.116
56.78,173.83,-0.116
56.84,173.26,-0.116
56.89,172.70,-0.116
56.95,172.13,-0.116
57.01,171.57,-0.116
57.06,171.00,-0.116
57.12,170.43,-0.116
57.18,169.87,-0.116
57.23,169.30,-0.116
57.29,168.74,-0.116
57.35,168.17,-0.116
57.40,167.60,-0.116
57.46,167.04,-0.116
57.52,166.47,-0.116
57.57,165.91,-0.116
57.63,165.34,-0.115
57.69,164.77,-0.115
57.74,164.21,-0.115
57.80,163.64,-0.115
57.86,163.07,-0.115
57.91,162.51,-0.115
57.97,161.94,-0.115
58.03,161.38,-0.115
58.08,160.81,-0.115
58.14,160.24,-0.115
58.20,159.68,-0.115
[...]
60.29,138.73,-0.115
60.35,138.16,-0.115
60.41,137.60,-0.115
60.46,137.03,-0.115
60.52,136.47,-0.115
60.58,135.90,-0.115
60.63,135.33,-0.115
60.69,134.77,-0.114
60.75,134.20,-0.114
60.80,133.63,-0.114
60.86,133.07,-0.114
60.92,132.50,-0.114
60.97,131.94,-0.114
61.03,131.37,-0.114
61.09,130.80,-0.114
61.14,130.24,-0.114
61.20,129.67,-0.114
61.26,129.11,-0.114
61.31,128.54,-0.114
61.37,127.97,-0.114
61.43,127.41,-0.114
61.48,126.84,-0.114
61.54,126.28,-0.114
61.60,125.71,-0.114
61.65,125.14,-0.114
61.71,124.58,-0.114
61.77,124.01,-0.114
61.82,123.44,-0.114
61.88,122.88,-0.114
61.94,122.31,-0.114
61.99,121.75,-0.114
62.05,121.18,-0.114
62.11,120.61,-0.114
62.16,120.05,-0.114
62.22,119.48,-0.114
62.28,118.92,-0.114
62.33,118.35,-0.114
62.39,117.78,-0.114
62.45,117.22,-0.113
62.50,116.65,-0.113
62.56,116.08,-0.113
62.62,115.52,-0.113
62.67,114.95,-0.113
62.73,114.39,-0.113
62.79,113.82,-0.113
62.84,113.25,-0.113
62.90,112.69,-0.113
62.96,112.12,-0.113
63.01,111.56,-0.113
63.07,110.99,-0.113
63.13,110.42,-0.113
63.18,109.86,-0.113
63.24,109.29,-0.113
63.30,108.73,-0.113
63.35,108.16,-0.113
63.41,107.59,-0.113
63.47,107.02,-0.113
63.52,106.46,-0.113
63.58,105.89,-0.113
63.64,105.33,-0.113
63.69,104.76,-0.113
63.75,104.19,-0.113
63.81,103.63,-0.113
63.86,103.06,-0.112
63.92,102.50,-0.112
63.98,101.93,-0.112
64.03,101.36,-0.112
64.09,100.80,-0.112
64.15,100.23,-0.112
64.20,99.66,-0.112
64.26,99.10,-0.112
64.32,98.53,-0.112
64.37,97.97,-0.112
64.43,97.40,-0.112
64.49,96.83,-0.112
64.54,96.27,-0.112
64.60,95.70,-0.112
64.66,95.14,-0.112
64.71,94.57,-0.112
64.77,94.00,-0.112
64.83,93.44,-0.112
64.88,92.87,-0.111
64.94,92.31,-0.111
65.00,91.74,-0.111
65.05,91.17,-0.111
65.11,90.61,-0.111
65.17,90.04,-0.111
65.22,89.47,-0.111
65.28,88.91,-0.111
65.34,88.34,-0.111
65.39,87.78,-0.111
65.45,87.21,-0.111
65.51,86.64,-0.111
65.56,86.08,-0.111
65.62,85.51,-0.111
65.68,84.95,-0.110
65.73,84.38,-0.110
65.79,83.81,-0.110
65.85,83.25,-0.110
65.90,82.68,-0.110
65.96,82.11,-0.110
66.02,81.55,-0.110
66.07,80.98,-0.110
66.13,80.41,-0.110
66.19,79.85,-0.110
66.24,79.28,-0.110
66.30,78.72,-0.110
66.36,78.15,-0.110
66.41,77.58,-0.110
66.47,77.02,-0.110
66.53,76.45,-0.110
66.58,75.89,-0.110
66.64,75.32,-0.110
66.70,74.75,-0.110
66.75,74.19,-0.110
66.81,73.62,-0.110
66.87,73.06,-0.110
66.92,72.49,-0.110
66.98,71.92,-0.110
67.04,71.36,-0.110
67.09,70.79,-0.110
67.15,70.22,-0.110
67.21,69.66,-0.110
67.26,69.09,-0.110
67.32,68.53,-0.110
67.38,67.96,-0.110
67.43,67.39,-0.110
67.49,66.83,-0.109
67.55,66.26,-0.109
67.60,65.69,-0.109
67.66,65.13,-0.109
67.72,64.56,-0.109
67.77,64.00,-0.109
67.83,63.43,-0.109
67.89,62.86,-0.109
67.94,62.30,-0.109
68.00,61.73,-0.109
68.06,61.17,-0.109
68.11,60.60,-0.109
68.17,60.03,-0.109
68.23,59.47,-0.109
68.28,58.90,-0.109
68.34,58.34,-0.109
68.40,57.77,-0.109
68.45,57.20,-0.109
68.51,56.64,-0.109
68.57,56.07,-0.109
68.62,55.51,-0.109
68.68,54.94,-0.108
68.74,54.37,-0.108
68.79,53.81,-0.108
68.85,53.24,-0.108
68.91,52.67,-0.108
68.96,52.11,-0.108
69.02,51.54,-0.108
69.08,50.97,-0.108
69.13,50.41,-0.108
69.19,49.84,-0.108
69.25,49.28,-0.108
69.30,48.71,-0.108
69.36,48.15,-0.108
69.42,47.58,-0.108
69.47,47.01,-0.107
69.53,46.45,-0.107
69.59,45.88,-0.107
69.64,45.31,-0.107
69.70,44.75,-0.107
69.76,44.18,-0.107
69.81,43.62,-0.107
69.87,43.05,-0.107
69.93,42.48,-0.107
69.98,41.92,-0.107
70.04,41.35,-0.107
70.10,40.79,-0.107
70.15,40.22,-0.107
70.21,39.65,-0.106
70.27,39.09,-0.106
70.32,38.52,-0.106
70.38,37.95,-0.106
70.44,37.39,-0.106
70.49,36.82,-0.106
70.55,36.26,-0.106
70.61,35.69,-0.106
70.66,35.12,-0.106
70.72,34.56,-0.106
70.78,33.99,-0.106
70.83,33.43,-0.106
70.89,32.86,-0.106
70.94,32.33,-0.105